color_square,position,position_x,corr_resp,type,training_loop.thisRepN,training_loop.thisTrialN,training_loop.thisN,training_loop.thisIndex,trials_loop_1.thisRepN,trials_loop_1.thisTrialN,trials_loop_1.thisN,trials_loop_1.thisIndex,trials_loop_2.thisRepN,trials_loop_2.thisTrialN,trials_loop_2.thisN,trials_loop_2.thisIndex,trials_loop_3.thisRepN,trials_loop_3.thisTrialN,trials_loop_3.thisN,trials_loop_3.thisIndex,key_start_training.started,start_image_training.started,key_start_training.keys,key_start_training.rt,plus_image.started,text_blank_250.started,square_training.started,key_resp_training.started,key_resp_training.keys,key_resp_training.corr,key_resp_training.rt,text_feedback_component.started,text_blank_500.started,text_feedback_component.stopped,text_blank_500.stopped,plus_image.stopped,text_blank_250.stopped,key_start_trial.started,start_image_trial.started,key_start_trial.keys,key_start_trial.rt,square_trial.started,key_resp_trial.started,key_resp_trial.keys,key_resp_trial.corr,key_resp_trial.rt,key_start_trial_2.started,start_image_trial_2.started,key_start_trial_2.keys,key_start_trial_2.rt,key_finish.started,text_finish.started,key_finish.keys,key_finish.rt,participant,session,bilingual,date,expName,psychopyVersion,frameRate,
,,,,,,,,,,,,,,,,,,,,,21.44154330017045,21.44154330017045,space,29.483602799940854,,,,,,,,,,,,,,,,,,,,,,,,,,,,,,,2,001,n,2024-05-28_18h35.12.585,simon,2022.2.5,59.75104123833747,
red,center,0.0,right,neutral,0,0,0,5,,,,,,,,,,,,,,,,,51.00997440004721,51.76502050017007,52.011683700140566,52.011683700140566,left,0,0.9130841000005603,52.95010350015946,53.46037380001508,,,,,,,,,,,,,,,,,,,,,,2,001,n,2024-05-28_18h35.12.585,simon,2022.2.5,59.75104123833747,
blue,center,0.0,left,neutral,0,1,1,2,,,,,,,,,,,,,,,,,53.71002009999938,54.50949770002626,54.75914470013231,54.75914470013231,left,1,0.8054299000650644,55.591969600180164,56.09139580000192,56.09139580000192,56.341118100099266,,,,,,,,,,,,,,,,,,,,2,001,n,2024-05-28_18h35.12.585,simon,2022.2.5,59.75104123833747,
red,right,0.5,right,congruent,0,2,2,3,,,,,,,,,,,,,,,,,56.341118100099266,57.14048350020312,57.390421100193635,57.390421100193635,right,1,0.8616768999490887,58.273037099977955,58.77281800005585,58.77281800005585,59.02201180020347,57.14048350020312,57.390421100193635,,,,,,,,,,,,,,,,,,2,001,n,2024-05-28_18h35.12.585,simon,2022.2.5,59.75104123833747,
red,center,0.0,right,neutral,0,3,3,5,,,,,,,,,,,,,,,,,59.02201180020347,59.82140520005487,60.07127930014394,60.07127930014394,right,1,0.701133499853313,60.80435930006206,61.32017680001445,,,59.82140520005487,60.07127930014394,,,,,,,,,,,,,,,,,,2,001,n,2024-05-28_18h35.12.585,simon,2022.2.5,59.75104123833747,
blue,center,0.0,left,neutral,0,4,4,2,,,,,,,,,,,,,,,,,61.56984800007194,62.369376900140196,62.619165300158784,62.619165300158784,left,1,0.7452063001692295,63.38550120010041,63.90130120003596,,,,,,,,,,,,,,,,,,,,,,2,001,n,2024-05-28_18h35.12.585,simon,2022.2.5,59.75104123833747,
red,left,-0.5,right,incongruent,0,5,5,4,,,,,,,,,,,,,,,,,64.1509094000794,64.95041580009274,65.19999069999903,65.19999069999903,right,1,0.5968373999930918,65.81734670000151,66.33236530004069,,,,,,,,,,,,,,,,,,,,,,2,001,n,2024-05-28_18h35.12.585,simon,2022.2.5,59.75104123833747,
blue,left,-0.5,left,congruent,1,0,6,0,,,,,,,,,,,,,,,,,66.58239170000888,67.38148920005187,67.63150610006414,67.63150610006414,right,0,0.6453148000873625,68.29853900009766,68.81355110020377,,,,,,,,,,,,,,,,,,,,,,2,001,n,2024-05-28_18h35.12.585,simon,2022.2.5,59.75104123833747,
blue,center,0.0,left,neutral,1,1,7,2,,,,,,,,,,,,,,,,,69.06346800015308,69.86283710016869,70.11247680010274,70.11247680010274,left,1,0.7875942001119256,70.92897560005076,71.42815000005066,71.42815000005066,71.67789140017703,,,,,,,,,,,,,,,,,,,,2,001,n,2024-05-28_18h35.12.585,simon,2022.2.5,59.75104123833747,
blue,right,0.5,left,incongruent,1,2,8,1,,,,,,,,,,,,,,,,,71.67789140017703,72.47710810019635,72.72707500006072,72.72707500006072,left,1,0.6052123999688774,73.3602795000188,73.8759335000068,,,72.47710810019635,72.72707500006072,,,,,,,,,,,,,,,,,,2,001,n,2024-05-28_18h35.12.585,simon,2022.2.5,59.75104123833747,
red,right,0.5,right,congruent,1,3,9,3,,,,,,,,,,,,,,,,,74.12549660005607,74.924984900048,75.17485230020247,75.17485230020247,right,1,0.7104802001267672,75.90813160012476,76.42364180018194,,,,,,,,,,,,,,,,,,,,,,2,001,n,2024-05-28_18h35.12.585,simon,2022.2.5,59.75104123833747,
blue,right,0.5,left,incongruent,1,4,10,1,,,,,,,,,,,,,,,,,76.67351520014927,77.47268960019574,77.7224946001079,77.7224946001079,right,0,0.6180548998527229,78.37253880011849,78.88808710011654,,,,,,,,,,,,,,,,,,,,,,2,001,n,2024-05-28_18h35.12.585,simon,2022.2.5,59.75104123833747,
blue,left,-0.5,left,congruent,1,5,11,0,,,,,,,,,,,,,,,,,79.13792690006085,79.93729600007646,80.18719760002568,80.18719760002568,left,1,0.9530152999795973,81.16990540013649,81.66911710007116,81.66911710007116,81.91885070013814,,,,,,,,,,,,,,,,,,,,2,001,n,2024-05-28_18h35.12.585,simon,2022.2.5,59.75104123833747,
red,center,0.0,right,neutral,2,0,12,5,,,,,,,,,,,,,,,,,81.91885070013814,82.71806100010872,82.96787080005743,82.96787080005743,right,1,0.5175070001278073,83.52003210014664,84.03373290016316,,,82.71806100010872,82.96787080005743,,,,,,,,,,,,,,,,,,2,001,n,2024-05-28_18h35.12.585,simon,2022.2.5,59.75104123833747,
red,right,0.5,right,congruent,2,1,13,3,,,,,,,,,,,,,,,,,84.28347660019062,85.08286860003136,85.33251920016482,85.33251920016482,left,0,0.7198962999973446,86.08257500012405,86.59796779998578,,,,,,,,,,,,,,,,,,,,,,2,001,n,2024-05-28_18h35.12.585,simon,2022.2.5,59.75104123833747,
blue,right,0.5,left,incongruent,2,2,14,1,,,,,,,,,,,,,,,,,86.84783610003069,87.64693600009196,87.8970743000973,87.8970743000973,right,0,0.6679591999854892,88.59684760007076,89.11305400007404,,,,,,,,,,,,,,,,,,,,,,2,001,n,2024-05-28_18h35.12.585,simon,2022.2.5,59.75104123833747,
red,left,-0.5,right,incongruent,2,3,15,4,,,,,,,,,,,,,,,,,89.36227560020052,90.16163480002433,90.4119860001374,90.4119860001374,right,1,0.5772228999994695,91.01174560002983,91.5270646000281,,,,,,,,,,,,,,,,,,,,,,2,001,n,2024-05-28_18h35.12.585,simon,2022.2.5,59.75104123833747,
blue,center,0.0,left,neutral,2,4,16,2,,,,,,,,,,,,,,,,,91.77696950011887,92.57622300018556,92.8259525001049,92.8259525001049,right,0,0.562707600183785,93.4111330001615,93.92529739998281,,,,,,,,,,,,,,,,,,,,,,2,001,n,2024-05-28_18h35.12.585,simon,2022.2.5,59.75104123833747,
red,center,0.0,right,neutral,2,5,17,5,,,,,,,,,,,,,,,,,94.17495390004478,94.97418840019964,95.22400060016662,95.22400060016662,right,1,0.5164791999850422,95.75846410007216,96.27293380000629,,,,,,,,,,,,,,,,,,,,,,2,001,n,2024-05-28_18h35.12.585,simon,2022.2.5,59.75104123833747,
blue,right,0.5,left,incongruent,3,0,18,1,,,,,,,,,,,,,,,,,96.52318180003203,97.32190049998462,97.57184009999037,97.57184009999037,right,0,0.5680862001609057,98.17153070005588,98.67091720015742,98.67091720015742,98.92069350020029,,,,,,,,,,,,,,,,,,,,2,001,n,2024-05-28_18h35.12.585,simon,2022.2.5,59.75104123833747,
red,left,-0.5,right,incongruent,3,1,19,4,,,,,,,,,,,,,,,,,98.92069350020029,99.71989230019972,99.96973690018058,99.96973690018058,left,0,0.5231534000486135,100.52022609999403,101.0354238001164,,,99.71989230019972,99.96973690018058,,,,,,,,,,,,,,,,,,2,001,n,2024-05-28_18h35.12.585,simon,2022.2.5,59.75104123833747,
blue,left,-0.5,left,congruent,3,2,20,0,,,,,,,,,,,,,,,,,101.28530490002595,102.08450430002995,102.33450810005888,102.33450810005888,left,1,0.5736080000642687,102.93433210020885,103.43368300003931,103.43368300003931,103.6831340000499,,,,,,,,,,,,,,,,,,,,2,001,n,2024-05-28_18h35.12.585,simon,2022.2.5,59.75104123833747,
red,left,-0.5,right,incongruent,3,3,21,4,,,,,,,,,,,,,,,,,103.6831340000499,104.48247730010189,104.7325210000854,104.7325210000854,right,1,0.5923810000531375,105.34869290003553,105.84805340017192,105.84805340017192,106.09771360014565,104.48247730010189,104.7325210000854,,,,,,,,,,,,,,,,,,2,001,n,2024-05-28_18h35.12.585,simon,2022.2.5,59.75104123833747,
red,right,0.5,right,congruent,3,4,22,3,,,,,,,,,,,,,,,,,106.09771360014565,106.89723160001449,107.14664140017703,107.14664140017703,right,1,0.8506763998884708,108.02982890000567,108.52947530010715,108.52947530010715,,106.89723160001449,107.14664140017703,,,,,,,,,,,,,,,,,,2,001,n,2024-05-28_18h35.12.585,simon,2022.2.5,59.75104123833747,
blue,left,-0.5,left,congruent,3,5,23,0,,,,,,,,,,,,,,,,,108.79539790004492,109.59463450009935,109.84462490002625,109.84462490002625,right,0,0.624008399900049,110.49434670014307,111.0100734999869,,,,,,,,,,,,,,,,,,,,,,2,001,n,2024-05-28_18h35.12.585,simon,2022.2.5,59.75104123833747,
,,,,,,,,,,,,,,,,,,,,,,,,,,,,,,,,,,,,,,111.2597535001114,111.2597535001114,space,23.920394399901852,,,,,,,,,,,,,,2,001,n,2024-05-28_18h35.12.585,simon,2022.2.5,59.75104123833747,
blue,left,-0.5,left,congruent,,,,,0,0,0,0,,,,,,,,,,,,,135.2060073001776,136.02164130005985,,,,,,,137.17058959999122,,137.42071630014107,,,,,,,136.27137930016033,136.27137930016033,left,1,0.8769243001006544,,,,,,,,,2,001,n,2024-05-28_18h35.12.585,simon,2022.2.5,59.75104123833747,
blue,right,0.5,left,incongruent,,,,,0,1,1,1,,,,,,,,,,,,,137.42071630014107,138.23628850001842,,,,,,,139.21886020014063,,139.4687436001841,,,,,,,138.48631509998813,138.48631509998813,left,1,0.7020772998221219,,,,,,,,,2,001,n,2024-05-28_18h35.12.585,simon,2022.2.5,59.75104123833747,
red,left,-0.5,right,incongruent,,,,,0,2,2,4,,,,,,,,,,,,,139.4687436001841,140.2681317999959,,,,,,,141.0172568000853,,141.266925400123,140.2681317999959,140.5176961000543,,,,,140.5176961000543,140.5176961000543,right,1,0.470632900018245,,,,,,,,,2,001,n,2024-05-28_18h35.12.585,simon,2022.2.5,59.75104123833747,
red,left,-0.5,right,incongruent,,,,,0,3,3,4,,,,,,,,,,,,,141.266925400123,142.06631610007025,,,,,,,142.91566730011255,,143.16547270002775,142.06631610007025,142.3161111001391,,,,,142.3161111001391,142.3161111001391,right,1,0.5776887000538409,,,,,,,,,2,001,n,2024-05-28_18h35.12.585,simon,2022.2.5,59.75104123833747,
red,right,0.5,right,congruent,,,,,0,4,4,3,,,,,,,,,,,,,143.16547270002775,143.96487060002983,,,,,,,144.78078300016932,,145.03045660001226,143.96487060002983,144.2145530001726,,,,,144.2145530001726,144.2145530001726,right,1,0.533480699872598,,,,,,,,,2,001,n,2024-05-28_18h35.12.585,simon,2022.2.5,59.75104123833747,
blue,left,-0.5,left,congruent,,,,,0,5,5,0,,,,,,,,,,,,,145.03045660001226,145.82964460016228,,,,,,,146.87883040006272,,147.12886629998684,145.82964460016228,146.07969650020823,,,,,146.07969650020823,146.07969650020823,left,1,0.7725698000285774,,,,,,,,,2,001,n,2024-05-28_18h35.12.585,simon,2022.2.5,59.75104123833747,
red,right,0.5,right,congruent,,,,,1,0,6,3,,,,,,,,,,,,,147.12886629998684,147.9294787000399,,,,,,,148.9104224999901,,149.16014510020614,147.9294787000399,148.17816320015118,,,,,148.17816320015118,148.17816320015118,right,1,0.7154584999661893,,,,,,,,,2,001,n,2024-05-28_18h35.12.585,simon,2022.2.5,59.75104123833747,
blue,right,0.5,left,incongruent,,,,,1,1,7,1,,,,,,,,,,,,,149.16014510020614,149.9593722000718,,,,,,,150.9753116001375,,151.22493940009736,149.9593722000718,150.20917110005394,,,,,150.20917110005394,150.20917110005394,left,1,0.7474879999645054,,,,,,,,,2,001,n,2024-05-28_18h35.12.585,simon,2022.2.5,59.75104123833747,
red,right,0.5,right,congruent,,,,,1,2,8,3,,,,,,,,,,,,,151.22493940009736,152.02448500017636,,,,,,,153.10674780001864,,153.35655650007538,152.02448500017636,152.2739980001934,,,,,152.2739980001934,152.2739980001934,right,1,0.8036593999713659,,,,,,,,,2,001,n,2024-05-28_18h35.12.585,simon,2022.2.5,59.75104123833747,
red,right,0.5,right,congruent,,,,,1,3,9,3,,,,,,,,,,,,,153.35655650007538,154.1559886999894,,,,,,,155.05518750008196,,155.30466620018706,154.1559886999894,154.40573790017515,,,,,154.40573790017515,154.40573790017515,right,1,0.6227750000543892,,,,,,,,,2,001,n,2024-05-28_18h35.12.585,simon,2022.2.5,59.75104123833747,
blue,right,0.5,left,incongruent,,,,,1,4,10,1,,,,,,,,,,,,,155.30466620018706,156.10453870007768,,,,,,,157.13668790017255,,157.3862872000318,156.10453870007768,156.35402730014175,,,,,156.35402730014175,156.35402730014175,left,1,0.7551760000642389,,,,,,,,,2,001,n,2024-05-28_18h35.12.585,simon,2022.2.5,59.75104123833747,
red,left,-0.5,right,incongruent,,,,,1,5,11,4,,,,,,,,,,,,,157.3862872000318,158.18563830014318,,,,,,,159.05155880004168,,159.3014128000941,158.18563830014318,158.43546320009045,,,,,158.43546320009045,158.43546320009045,right,1,0.5846805998589844,,,,,,,,,2,001,n,2024-05-28_18h35.12.585,simon,2022.2.5,59.75104123833747,
red,center,0.0,right,neutral,,,,,2,0,12,5,,,,,,,,,,,,,159.3014128000941,160.10070730000734,,,,,,,160.99990050005727,,161.2495201001875,160.10070730000734,160.35047619999386,,,,,160.35047619999386,160.35047619999386,right,1,0.6221300000324845,,,,,,,,,2,001,n,2024-05-28_18h35.12.585,simon,2022.2.5,59.75104123833747,
red,center,0.0,right,neutral,,,,,2,1,13,5,,,,,,,,,,,,,161.2495201001875,162.04883480002172,,,,,,,162.93166750017554,,163.18141419999301,162.04883480002172,162.2989120001439,,,,,162.2989120001439,162.2989120001439,right,1,0.6008063000626862,,,,,,,,,2,001,n,2024-05-28_18h35.12.585,simon,2022.2.5,59.75104123833747,
red,right,0.5,right,congruent,,,,,2,2,14,3,,,,,,,,,,,,,163.18141419999301,163.98053820012137,,,,,,,164.92965760012157,,165.1797812001314,163.98053820012137,164.23045510007069,,,,,164.23045510007069,164.23045510007069,left,0,0.6712560001760721,,,,,,,,,2,001,n,2024-05-28_18h35.12.585,simon,2022.2.5,59.75104123833747,
red,left,-0.5,right,incongruent,,,,,2,3,15,4,,,,,,,,,,,,,165.1797812001314,165.9954930001404,,,,,,,166.96141010010615,,167.21128619997762,,,,,,,166.24537100014277,166.24537100014277,right,1,0.6952067001257092,,,,,,,,,2,001,n,2024-05-28_18h35.12.585,simon,2022.2.5,59.75104123833747,
blue,right,0.5,left,incongruent,,,,,2,4,16,1,,,,,,,,,,,,,167.21128619997762,168.02685110014863,,,,,,,168.8598291000817,,169.1099331001751,,,,,,,168.27681710012257,168.27681710012257,left,1,0.5595630998723209,,,,,,,,,2,001,n,2024-05-28_18h35.12.585,simon,2022.2.5,59.75104123833747,
blue,right,0.5,left,incongruent,,,,,2,5,17,1,,,,,,,,,,,,,169.1099331001751,169.92551720002666,,,,,,,170.84133860003203,,171.0910000000149,,,,,,,170.17513950006105,170.17513950006105,left,1,0.64549639984034,,,,,,,,,2,001,n,2024-05-28_18h35.12.585,simon,2022.2.5,59.75104123833747,
blue,center,0.0,left,neutral,,,,,3,0,18,2,,,,,,,,,,,,,171.0910000000149,171.890364699997,,,,,,,172.6230195001699,,172.87289080000482,171.890364699997,172.14026220003143,,,,,172.14026220003143,172.14026220003143,right,0,0.45615750015713274,,,,,,,,,2,001,n,2024-05-28_18h35.12.585,simon,2022.2.5,59.75104123833747,
blue,left,-0.5,left,congruent,,,,,3,1,19,0,,,,,,,,,,,,,172.87289080000482,173.67204590002075,,,,,,,174.60461390018463,,174.85433650016785,173.67204590002075,173.92203600006178,,,,,173.92203600006178,173.92203600006178,left,1,0.6665747999213636,,,,,,,,,2,001,n,2024-05-28_18h35.12.585,simon,2022.2.5,59.75104123833747,
blue,right,0.5,left,incongruent,,,,,3,2,20,1,,,,,,,,,,,,,174.85433650016785,175.6537820000667,,,,,,,176.4030333000701,,176.65283760009333,175.6537820000667,175.9035761000123,,,,,175.9035761000123,175.9035761000123,left,1,0.4771676999516785,,,,,,,,,2,001,n,2024-05-28_18h35.12.585,simon,2022.2.5,59.75104123833747,
blue,center,0.0,left,neutral,,,,,3,3,21,2,,,,,,,,,,,,,176.65283760009333,177.45270220004022,,,,,,,178.13492440013215,,178.38492260011844,177.45270220004022,177.7021759999916,,,,,177.7021759999916,177.7021759999916,left,1,0.414854200091213,,,,,,,,,2,001,n,2024-05-28_18h35.12.585,simon,2022.2.5,59.75104123833747,
blue,left,-0.5,left,congruent,,,,,3,4,22,0,,,,,,,,,,,,,178.38492260011844,179.2005432001315,,,,,,,179.99995690002106,,180.24961450020783,,,,,,,179.4504258001689,179.4504258001689,left,1,0.5226050999481231,,,,,,,,,2,001,n,2024-05-28_18h35.12.585,simon,2022.2.5,59.75104123833747,
blue,center,0.0,left,neutral,,,,,3,5,23,2,,,,,,,,,,,,,180.24961450020783,181.04904490010813,,,,,,,181.7983174000401,,182.04823340009898,181.04904490010813,181.2986333000008,,,,,181.2986333000008,181.2986333000008,left,1,0.48287960002198815,,,,,,,,,2,001,n,2024-05-28_18h35.12.585,simon,2022.2.5,59.75104123833747,
blue,left,-0.5,left,congruent,,,,,4,0,24,0,,,,,,,,,,,,,182.04823340009898,182.84745020000264,,,,,,,183.77993610012345,,184.02978620002978,182.84745020000264,183.09713380015455,,,,,183.09713380015455,183.09713380015455,left,1,0.6513040999416262,,,,,,,,,2,001,n,2024-05-28_18h35.12.585,simon,2022.2.5,59.75104123833747,
red,left,-0.5,right,incongruent,,,,,4,1,25,4,,,,,,,,,,,,,184.02978620002978,184.82901930017397,,,,,,,185.74501950014383,,185.99470000015572,184.82901930017397,185.07872610003687,,,,,185.07872610003687,185.07872610003687,right,1,0.6458955998532474,,,,,,,,,2,001,n,2024-05-28_18h35.12.585,simon,2022.2.5,59.75104123833747,
red,center,0.0,right,neutral,,,,,4,2,26,5,,,,,,,,,,,,,185.99470000015572,186.7941988001112,,,,,,,187.3939002000261,,187.6435210001655,186.7941988001112,187.0438143000938,,,,,187.0438143000938,187.0438143000938,right,1,0.32123670005239546,,,,,,,,,2,001,n,2024-05-28_18h35.12.585,simon,2022.2.5,59.75104123833747,
blue,center,0.0,left,neutral,,,,,4,3,27,2,,,,,,,,,,,,,187.6435210001655,188.45931030018255,,,,,,,189.22517950017937,,189.47515060007572,,,,,,,188.7089875000529,188.7089875000529,left,1,0.48779279994778335,,,,,,,,,2,001,n,2024-05-28_18h35.12.585,simon,2022.2.5,59.75104123833747,
red,center,0.0,right,neutral,,,,,4,4,28,5,,,,,,,,,,,,,189.47515060007572,190.27446420001797,,,,,,,191.07364660012536,,191.323528500041,190.27446420001797,190.52393140015192,,,,,190.52393140015192,190.52393140015192,right,1,0.520318099996075,,,,,,,,,2,001,n,2024-05-28_18h35.12.585,simon,2022.2.5,59.75104123833747,
blue,center,0.0,left,neutral,,,,,4,5,29,2,,,,,,,,,,,,,191.323528500041,192.12260520015843,,,,,,,192.8723274001386,,193.1218907001894,192.12260520015843,192.3725368999876,,,,,192.3725368999876,192.3725368999876,left,1,0.47191189997829497,,,,,,,,,2,001,n,2024-05-28_18h35.12.585,simon,2022.2.5,59.75104123833747,
blue,center,0.0,left,neutral,,,,,5,0,30,2,,,,,,,,,,,,,193.1218907001894,193.92116360017098,,,,,,,194.6705214001704,,194.92039990006015,193.92116360017098,194.1710404001642,,,,,194.1710404001642,194.1710404001642,left,1,0.4734674000646919,,,,,,,,,2,001,n,2024-05-28_18h35.12.585,simon,2022.2.5,59.75104123833747,
red,center,0.0,right,neutral,,,,,5,1,31,5,,,,,,,,,,,,,194.92039990006015,195.71949140005745,,,,,,,196.452246400062,,196.70213840017095,195.71949140005745,195.9690507000778,,,,,195.9690507000778,195.9690507000778,right,1,0.45988280000165105,,,,,,,,,2,001,n,2024-05-28_18h35.12.585,simon,2022.2.5,59.75104123833747,
red,center,0.0,right,neutral,,,,,5,2,32,5,,,,,,,,,,,,,196.70213840017095,197.5184793001972,,,,,,,198.43390360008925,,198.68356800009497,,,,,,,197.76772860018536,197.76772860018536,right,1,0.645138000138104,,,,,,,,,2,001,n,2024-05-28_18h35.12.585,simon,2022.2.5,59.75104123833747,
red,left,-0.5,right,incongruent,,,,,5,3,33,4,,,,,,,,,,,,,198.68356800009497,199.48317999998108,,,,,,,200.48215970001183,,200.73168259998783,199.48317999998108,199.73262280016206,,,,,199.73262280016206,199.73262280016206,right,1,0.7282523999456316,,,,,,,,,2,001,n,2024-05-28_18h35.12.585,simon,2022.2.5,59.75104123833747,
red,right,0.5,right,congruent,,,,,5,4,34,3,,,,,,,,,,,,,200.73168259998783,201.5312521001324,,,,,,,202.4970805000048,,202.74686640012078,201.5312521001324,201.78098470019177,,,,,201.78098470019177,201.78098470019177,right,1,0.6877319999039173,,,,,,,,,2,001,n,2024-05-28_18h35.12.585,simon,2022.2.5,59.75104123833747,
blue,center,0.0,left,neutral,,,,,5,5,35,2,,,,,,,,,,,,,202.74686640012078,203.54620780004188,,,,,,,204.34546790015884,,204.59491010010242,203.54620780004188,203.79580250009894,,,,,203.79580250009894,203.79580250009894,right,0,0.5201093999203295,,,,,,,,,2,001,n,2024-05-28_18h35.12.585,simon,2022.2.5,59.75104123833747,
blue,left,-0.5,left,congruent,,,,,6,0,36,0,,,,,,,,,,,,,204.59491010010242,205.3949478000868,,,,,,,206.12716250005178,,206.37692120019346,205.3949478000868,205.6443046000786,,,,,205.6443046000786,205.6443046000786,left,1,0.4637849999126047,,,,,,,,,2,001,n,2024-05-28_18h35.12.585,simon,2022.2.5,59.75104123833747,
red,left,-0.5,right,incongruent,,,,,6,1,37,4,,,,,,,,,,,,,206.37692120019346,207.17635080008768,,,,,,,208.20890270010568,,208.45874150004238,207.17635080008768,207.42627510009333,,,,,207.42627510009333,207.42627510009333,right,1,0.7544259999413043,,,,,,,,,2,001,n,2024-05-28_18h35.12.585,simon,2022.2.5,59.75104123833747,
blue,left,-0.5,left,congruent,,,,,6,2,38,0,,,,,,,,,,,,,208.45874150004238,209.27446480002254,,,,,,,209.9072831000667,,210.1573491001036,,,,,,,209.52462080004625,209.52462080004625,left,1,0.35128069994971156,,,,,,,,,2,001,n,2024-05-28_18h35.12.585,simon,2022.2.5,59.75104123833747,
blue,right,0.5,left,incongruent,,,,,6,3,39,1,,,,,,,,,,,,,210.1573491001036,210.97295960015617,,,,,,,211.8889429999981,,212.13859690004028,,,,,,,211.22257910016924,211.22257910016924,left,1,0.6378091999795288,,,,,,,,,2,001,n,2024-05-28_18h35.12.585,simon,2022.2.5,59.75104123833747,
red,center,0.0,right,neutral,,,,,6,4,40,5,,,,,,,,,,,,,212.13859690004028,212.9379010000266,,,,,,,213.68734290008433,,213.93723809998482,212.9379010000266,213.18766260007396,,,,,213.18766260007396,213.18766260007396,right,1,0.4732425999827683,,,,,,,,,2,001,n,2024-05-28_18h35.12.585,simon,2022.2.5,59.75104123833747,
red,right,0.5,right,congruent,,,,,6,5,41,3,,,,,,,,,,,,,213.93723809998482,214.7528515001759,,,,,,,215.46902810013853,,215.71882429998368,,,,,,,215.00274380017072,215.00274380017072,right,1,0.4336220999248326,,,,,,,,,2,001,n,2024-05-28_18h35.12.585,simon,2022.2.5,59.75104123833747,
,,,,,,,,,,,,,,,,,,,,,,,,,,,,,,,,,,,,,,,,,,,,,,,215.71882429998368,215.71882429998368,space,8.910110800061375,,,,,2,001,n,2024-05-28_18h35.12.585,simon,2022.2.5,59.75104123833747,
red,right,0.5,right,congruent,,,,,,,,,0,0,0,3,,,,,,,,,224.66149910003878,225.4603288001381,,,,,,,226.29318520007655,,226.54311130009592,225.4603288001381,225.71007500006817,,,,,225.71007500006817,225.71007500006817,right,1,0.5587204000912607,,,,,,,,,2,001,n,2024-05-28_18h35.12.585,simon,2022.2.5,59.75104123833747,
blue,right,0.5,left,incongruent,,,,,,,,,0,1,1,1,,,,,,,,,226.54311130009592,227.3585812000092,,,,,,,228.3078548000194,,228.55754519999027,,,,,,,227.60858080000617,227.60858080000617,left,1,0.6680247997865081,,,,,,,,,2,001,n,2024-05-28_18h35.12.585,simon,2022.2.5,59.75104123833747,
blue,right,0.5,left,incongruent,,,,,,,,,0,2,2,1,,,,,,,,,228.55754519999027,229.35716540017165,,,,,,,230.1230091000907,,230.37262090016156,229.35716540017165,229.60668120021,,,,,229.60668120021,229.60668120021,left,1,0.485801599919796,,,,,,,,,2,001,n,2024-05-28_18h35.12.585,simon,2022.2.5,59.75104123833747,
blue,right,0.5,left,incongruent,,,,,,,,,0,3,3,1,,,,,,,,,230.37262090016156,231.17199010006152,,,,,,,231.9047155000735,,232.15454720007256,231.17199010006152,231.4217408001423,,,,,231.4217408001423,231.4217408001423,left,1,0.45478689996525645,,,,,,,,,2,001,n,2024-05-28_18h35.12.585,simon,2022.2.5,59.75104123833747,
blue,right,0.5,left,incongruent,,,,,,,,,0,4,4,1,,,,,,,,,232.15454720007256,232.97047180007212,,,,,,,233.7032813001424,,233.95330750010908,,,,,,,233.2202892000787,233.2202892000787,left,1,0.4658122998662293,,,,,,,,,2,001,n,2024-05-28_18h35.12.585,simon,2022.2.5,59.75104123833747,
blue,left,-0.5,left,congruent,,,,,,,,,0,5,5,0,,,,,,,,,233.95330750010908,234.76885100011714,,,,,,,235.501569500193,,235.75126140005887,,,,,,,235.0186177000869,235.0186177000869,left,1,0.45085220015607774,,,,,,,,,2,001,n,2024-05-28_18h35.12.585,simon,2022.2.5,59.75104123833747,
blue,center,0.0,left,neutral,,,,,,,,,1,0,6,2,,,,,,,,,235.75126140005887,236.5507019001525,,,,,,,237.20012450008653,,237.4497029001359,236.5507019001525,236.8005332001485,,,,,236.8005332001485,236.8005332001485,left,1,0.379301100037992,,,,,,,,,2,001,n,2024-05-28_18h35.12.585,simon,2022.2.5,59.75104123833747,
blue,center,0.0,left,neutral,,,,,,,,,1,1,7,2,,,,,,,,,237.4497029001359,238.24901730008423,,,,,,,238.89841959998012,,239.14839280000888,238.24901730008423,238.49893240001984,,,,,238.49893240001984,238.49893240001984,left,1,0.36891949991695583,,,,,,,,,2,001,n,2024-05-28_18h35.12.585,simon,2022.2.5,59.75104123833747,
red,right,0.5,right,congruent,,,,,,,,,1,2,8,3,,,,,,,,,239.14839280000888,239.96422550012358,,,,,,,240.86346800019965,,241.1133483001031,,,,,,,240.21398620004766,240.21398620004766,right,1,0.6223824999760836,,,,,,,,,2,001,n,2024-05-28_18h35.12.585,simon,2022.2.5,59.75104123833747,
red,center,0.0,right,neutral,,,,,,,,,1,3,9,5,,,,,,,,,241.1133483001031,241.92933390010148,,,,,,,242.71199400001206,,242.96162580000237,,,,,,,242.17912260000594,242.17912260000594,right,1,0.5131588999647647,,,,,,,,,2,001,n,2024-05-28_18h35.12.585,simon,2022.2.5,59.75104123833747,
red,left,-0.5,right,incongruent,,,,,,,,,1,4,10,4,,,,,,,,,242.96162580000237,243.76126970001496,,,,,,,244.61039380007423,,244.86008440004662,243.76126970001496,244.0110214999877,,,,,244.0110214999877,244.0110214999877,right,1,0.5773642999120057,,,,,,,,,2,001,n,2024-05-28_18h35.12.585,simon,2022.2.5,59.75104123833747,
red,center,0.0,right,neutral,,,,,,,,,1,5,11,5,,,,,,,,,244.86008440004662,245.65925430017523,,,,,,,246.27543890010566,,246.52535580005497,245.65925430017523,245.90911280014552,,,,,245.90911280014552,245.90911280014552,right,1,0.34329720004461706,,,,,,,,,2,001,n,2024-05-28_18h35.12.585,simon,2022.2.5,59.75104123833747,
red,left,-0.5,right,incongruent,,,,,,,,,2,0,12,4,,,,,,,,,246.52535580005497,247.32469160016626,,,,,,,248.07370730000548,,248.3237745000515,247.32469160016626,247.57448050007224,,,,,247.57448050007224,247.57448050007224,right,1,0.470212500076741,,,,,,,,,2,001,n,2024-05-28_18h35.12.585,simon,2022.2.5,59.75104123833747,
blue,left,-0.5,left,congruent,,,,,,,,,2,1,13,0,,,,,,,,,248.3237745000515,249.13972820015624,,,,,,,250.05578390019946,,250.30526930000633,,,,,,,249.3894546001684,249.3894546001684,left,1,0.6388542999047786,,,,,,,,,2,001,n,2024-05-28_18h35.12.585,simon,2022.2.5,59.75104123833747,
blue,left,-0.5,left,congruent,,,,,,,,,2,2,14,0,,,,,,,,,250.30526930000633,251.12118210014887,,,,,,,251.83732580021024,,252.08694850001484,,,,,,,251.37114390009083,251.37114390009083,left,1,0.43355129985138774,,,,,,,,,2,001,n,2024-05-28_18h35.12.585,simon,2022.2.5,59.75104123833747,
blue,center,0.0,left,neutral,,,,,,,,,2,3,15,2,,,,,,,,,252.08694850001484,252.8862819999922,,,,,,,253.61901680007577,,253.86891110008582,252.8862819999922,253.13617730000988,,,,,253.13617730000988,253.13617730000988,left,1,0.45238110003992915,,,,,,,,,2,001,n,2024-05-28_18h35.12.585,simon,2022.2.5,59.75104123833747,
red,left,-0.5,right,incongruent,,,,,,,,,2,4,16,4,,,,,,,,,253.86891110008582,254.6691542000044,,,,,,,255.40095779998228,,255.65061080013402,254.6691542000044,254.9181755001191,,,,,254.9181755001191,254.9181755001191,right,1,0.4538791000377387,,,,,,,,,2,001,n,2024-05-28_18h35.12.585,simon,2022.2.5,59.75104123833747,
blue,left,-0.5,left,congruent,,,,,,,,,2,5,17,0,,,,,,,,,255.65061080013402,256.45002360013314,,,,,,,257.5658050000202,,257.8153386001941,256.45002360013314,256.6996129001491,,,,,256.6996129001491,256.6996129001491,left,1,0.8335914998315275,,,,,,,,,2,001,n,2024-05-28_18h35.12.585,simon,2022.2.5,59.75104123833747,
blue,center,0.0,left,neutral,,,,,,,,,3,0,18,2,,,,,,,,,257.8153386001941,258.6145317000337,,,,,,,259.3141042999923,,259.5639474000782,258.6145317000337,258.8646148000844,,,,,258.8646148000844,258.8646148000844,left,1,0.4284959000069648,,,,,,,,,2,001,n,2024-05-28_18h35.12.585,simon,2022.2.5,59.75104123833747,
red,left,-0.5,right,incongruent,,,,,,,,,3,1,19,4,,,,,,,,,259.5639474000782,260.3632428001147,,,,,,,261.0293900000397,,261.27910120016895,260.3632428001147,260.61294900020584,,,,,260.61294900020584,260.61294900020584,right,1,0.39239219995215535,,,,,,,,,2,001,n,2024-05-28_18h35.12.585,simon,2022.2.5,59.75104123833747,
red,right,0.5,right,congruent,,,,,,,,,3,2,20,3,,,,,,,,,261.27910120016895,262.07846930017695,,,,,,,262.92745460011065,,263.1773854000494,262.07846930017695,262.3282932001166,,,,,262.3282932001166,262.3282932001166,left,0,0.5727226999588311,,,,,,,,,2,001,n,2024-05-28_18h35.12.585,simon,2022.2.5,59.75104123833747,
blue,left,-0.5,left,congruent,,,,,,,,,3,3,21,0,,,,,,,,,263.1773854000494,263.97660180018283,,,,,,,264.67630950012244,,264.9259194000624,263.97660180018283,264.2264332000632,,,,,264.2264332000632,264.2264332000632,right,0,0.41762310010381043,,,,,,,,,2,001,n,2024-05-28_18h35.12.585,simon,2022.2.5,59.75104123833747,
blue,center,0.0,left,neutral,,,,,,,,,3,4,22,2,,,,,,,,,264.9259194000624,265.7253837999888,,,,,,,266.4246141000185,,266.67442460008897,265.7253837999888,265.9748047001194,,,,,265.9748047001194,265.9748047001194,right,0,0.429602799937129,,,,,,,,,2,001,n,2024-05-28_18h35.12.585,simon,2022.2.5,59.75104123833747,
blue,center,0.0,left,neutral,,,,,,,,,3,5,23,2,,,,,,,,,266.67442460008897,267.47382790013216,,,,,,,268.48935180017725,,268.73918440006673,267.47382790013216,267.7237080000341,,,,,267.7237080000341,267.7237080000341,right,0,0.7450034997891635,,,,,,,,,2,001,n,2024-05-28_18h35.12.585,simon,2022.2.5,59.75104123833747,
blue,center,0.0,left,neutral,,,,,,,,,4,0,24,2,,,,,,,,,268.73918440006673,269.5388825000264,,,,,,,270.20441080001183,,270.45446899998933,269.5388825000264,269.7882515001111,,,,,269.7882515001111,269.7882515001111,left,1,0.39263819996267557,,,,,,,,,2,001,n,2024-05-28_18h35.12.585,simon,2022.2.5,59.75104123833747,
blue,right,0.5,left,incongruent,,,,,,,,,4,1,25,1,,,,,,,,,270.45446899998933,271.25384460017085,,,,,,,271.9528299001977,,272.20293959998526,271.25384460017085,271.50332560017705,,,,,271.50332560017705,271.50332560017705,left,1,0.42928160005249083,,,,,,,,,2,001,n,2024-05-28_18h35.12.585,simon,2022.2.5,59.75104123833747,
red,center,0.0,right,neutral,,,,,,,,,4,2,26,5,,,,,,,,,272.20293959998526,273.00228920020163,,,,,,,273.7849314000923,,274.0345397000201,273.00228920020163,273.25186170008965,,,,,273.25186170008965,273.25186170008965,right,1,0.5051977999974042,,,,,,,,,2,001,n,2024-05-28_18h35.12.585,simon,2022.2.5,59.75104123833747,
red,right,0.5,right,congruent,,,,,,,,,4,3,27,3,,,,,,,,,274.0345397000201,274.83385569998063,,,,,,,275.6166893001646,,275.86632410017774,274.83385569998063,275.08375240000896,,,,,275.08375240000896,275.08375240000896,right,1,0.5123594000469893,,,,,,,,,2,001,n,2024-05-28_18h35.12.585,simon,2022.2.5,59.75104123833747,
red,right,0.5,right,congruent,,,,,,,,,4,4,28,3,,,,,,,,,275.86632410017774,276.66551459999755,,,,,,,277.28183910017833,,277.5318123002071,276.66551459999755,276.9152938001789,,,,,276.9152938001789,276.9152938001789,right,1,0.34576050005853176,,,,,,,,,2,001,n,2024-05-28_18h35.12.585,simon,2022.2.5,59.75104123833747,
red,center,0.0,right,neutral,,,,,,,,,4,5,29,5,,,,,,,,,277.5318123002071,278.3475525001995,,,,,,,278.9804734000936,,279.22995920013636,,,,,,,278.5975540999789,278.5975540999789,right,1,0.35094849998131394,,,,,,,,,2,001,n,2024-05-28_18h35.12.585,simon,2022.2.5,59.75104123833747,
red,left,-0.5,right,incongruent,,,,,,,,,5,0,30,4,,,,,,,,,279.22995920013636,280.029709600145,,,,,,,280.8619605000131,,281.1118257001508,280.029709600145,280.27895290008746,,,,,280.27895290008746,280.27895290008746,right,1,0.5659052000846714,,,,,,,,,2,001,n,2024-05-28_18h35.12.585,simon,2022.2.5,59.75104123833747,
red,left,-0.5,right,incongruent,,,,,,,,,5,1,31,4,,,,,,,,,281.1118257001508,281.91145180002786,,,,,,,282.627222500043,,282.87682570004836,281.91145180002786,282.16072150017135,,,,,282.16072150017135,282.16072150017135,right,1,0.43619819986633956,,,,,,,,,2,001,n,2024-05-28_18h35.12.585,simon,2022.2.5,59.75104123833747,
red,center,0.0,right,neutral,,,,,,,,,5,2,32,5,,,,,,,,,282.87682570004836,283.67621940001845,,,,,,,284.3924724000972,,284.642139100004,283.67621940001845,283.92615530011244,,,,,283.92615530011244,283.92615530011244,right,1,0.4389760000631213,,,,,,,,,2,001,n,2024-05-28_18h35.12.585,simon,2022.2.5,59.75104123833747,
blue,left,-0.5,left,congruent,,,,,,,,,5,3,33,0,,,,,,,,,284.642139100004,285.4416422001086,,,,,,,286.2073228000663,,286.4582897000946,285.4416422001086,285.6912161000073,,,,,285.6912161000073,285.6912161000073,left,1,0.48988269991241395,,,,,,,,,2,001,n,2024-05-28_18h35.12.585,simon,2022.2.5,59.75104123833747,
blue,left,-0.5,left,congruent,,,,,,,,,5,4,34,0,,,,,,,,,286.4582897000946,287.27284110011533,,,,,,,287.98893620003946,,288.2386404001154,,,,,,,287.5229956000112,287.5229956000112,left,1,0.449401400052011,,,,,,,,,2,001,n,2024-05-28_18h35.12.585,simon,2022.2.5,59.75104123833747,
blue,right,0.5,left,incongruent,,,,,,,,,5,5,35,1,,,,,,,,,288.2386404001154,289.0379939000122,,,,,,,289.98762060003355,,290.2370836001355,289.0379939000122,289.28784640016966,,,,,289.28784640016966,289.28784640016966,left,1,0.6776344999670982,,,,,,,,,2,001,n,2024-05-28_18h35.12.585,simon,2022.2.5,59.75104123833747,
red,center,0.0,right,neutral,,,,,,,,,6,0,36,5,,,,,,,,,290.2370836001355,291.05299840006046,,,,,,,291.7690573001746,,292.01962510007434,,,,,,,291.30288069997914,291.30288069997914,right,1,0.4376436001621187,,,,,,,,,2,001,n,2024-05-28_18h35.12.585,simon,2022.2.5,59.75104123833747,
red,center,0.0,right,neutral,,,,,,,,,6,1,37,5,,,,,,,,,292.01962510007434,292.83492170018144,,,,,,,293.7506572001148,,294.0005677000154,,,,,,,293.08461740007624,293.08461740007624,right,1,0.6410350000951439,,,,,,,,,2,001,n,2024-05-28_18h35.12.585,simon,2022.2.5,59.75104123833747,
red,right,0.5,right,congruent,,,,,,,,,6,2,38,3,,,,,,,,,294.0005677000154,294.8000521999784,,,,,,,295.5493171000853,,295.79868550016545,294.8000521999784,295.05013270000927,,,,,295.05013270000927,295.05013270000927,right,1,0.47373989992775023,,,,,,,,,2,001,n,2024-05-28_18h35.12.585,simon,2022.2.5,59.75104123833747,
red,right,0.5,right,congruent,,,,,,,,,6,3,39,3,,,,,,,,,295.79868550016545,296.59824500000104,,,,,,,297.26439080014825,,297.5141832001973,296.59824500000104,296.84814620018005,,,,,296.84814620018005,296.84814620018005,right,1,0.39678370021283627,,,,,,,,,2,001,n,2024-05-28_18h35.12.585,simon,2022.2.5,59.75104123833747,
blue,right,0.5,left,incongruent,,,,,,,,,6,4,40,1,,,,,,,,,297.5141832001973,298.32998340018094,,,,,,,299.0461490000598,,299.29588500014506,,,,,,,298.57979390001856,298.57979390001856,left,1,0.44125379994511604,,,,,,,,,2,001,n,2024-05-28_18h35.12.585,simon,2022.2.5,59.75104123833747,
red,left,-0.5,right,incongruent,,,,,,,,,6,5,41,4,,,,,,,,,299.29588500014506,300.09520049998537,,,,,,,300.92764630005695,,301.1776465000585,300.09520049998537,300.3449526000768,,,,,300.3449526000768,300.3449526000768,right,1,0.5555511999409646,,,,,,,,,2,001,n,2024-05-28_18h35.12.585,simon,2022.2.5,59.75104123833747,
,,,,,,,,,,,,,,,,,,,,,,,,,,,,,,,,,,,,,,,,,,,,,,,301.1776465000585,301.1776465000585,space,47.41039940016344,,,,,2,001,n,2024-05-28_18h35.12.585,simon,2022.2.5,59.75104123833747,
red,center,0.0,right,neutral,,,,,,,,,,,,,0,0,0,5,,,,,348.61971100000665,349.41888850019313,,,,,,,350.6843775000889,,,349.41888850019313,349.6684958001133,,,,,349.6684958001133,349.6684958001133,None,0,,,,,,,,,,2,001,n,2024-05-28_18h35.12.585,simon,2022.2.5,59.75104123833747,
red,right,0.5,right,congruent,,,,,,,,,,,,,0,1,1,3,,,,,350.93423010013066,351.7334811000619,,,,,,,352.4995081999805,,352.7493744001258,,,,,,,351.9833057001233,351.9833057001233,right,1,0.4848162999842316,,,,,,,,,2,001,n,2024-05-28_18h35.12.585,simon,2022.2.5,59.75104123833747,
blue,right,0.5,left,incongruent,,,,,,,,,,,,,0,2,2,1,,,,,352.7493744001258,353.5652151000686,,,,,,,354.3643245000858,,354.6143027001526,,,,,,,353.814942000201,353.814942000201,left,1,0.5174088999629021,,,,,,,,,2,001,n,2024-05-28_18h35.12.585,simon,2022.2.5,59.75104123833747,
blue,left,-0.5,left,congruent,,,,,,,,,,,,,0,3,3,0,,,,,354.6143027001526,355.41369250020944,,,,,,,356.129859500099,,356.37942980020307,355.41369250020944,355.6633068001829,,,,,355.6633068001829,355.6633068001829,left,1,0.43695879983715713,,,,,,,,,2,001,n,2024-05-28_18h35.12.585,simon,2022.2.5,59.75104123833747,
red,left,-0.5,right,incongruent,,,,,,,,,,,,,0,4,4,4,,,,,356.37942980020307,357.1785289000254,,,,,,,357.8951787999831,,358.1446081001777,357.1785289000254,357.42841220018454,,,,,357.42841220018454,357.42841220018454,right,1,0.44879109994508326,,,,,,,,,2,001,n,2024-05-28_18h35.12.585,simon,2022.2.5,59.75104123833747,
blue,right,0.5,left,incongruent,,,,,,,,,,,,,0,5,5,1,,,,,358.1446081001777,358.94383090012707,,,,,,,359.6598929001484,,359.9096021000296,358.94383090012707,359.1938696000725,,,,,359.1938696000725,359.1938696000725,right,0,0.44312800001353025,,,,,,,,,2,001,n,2024-05-28_18h35.12.585,simon,2022.2.5,59.75104123833747,
red,center,0.0,right,neutral,,,,,,,,,,,,,1,0,6,5,,,,,359.9096021000296,360.7090796001721,,,,,,,361.458263900131,,361.7081484000664,360.7090796001721,360.95879380009137,,,,,360.95879380009137,360.95879380009137,right,1,0.4772830998990685,,,,,,,,,2,001,n,2024-05-28_18h35.12.585,simon,2022.2.5,59.75104123833747,
blue,right,0.5,left,incongruent,,,,,,,,,,,,,1,1,7,1,,,,,361.7081484000664,362.5074769000057,,,,,,,363.5567289001774,,363.80627190019004,362.5074769000057,362.7570015999954,,,,,362.7570015999954,362.7570015999954,left,1,0.768004999961704,,,,,,,,,2,001,n,2024-05-28_18h35.12.585,simon,2022.2.5,59.75104123833747,
blue,left,-0.5,left,congruent,,,,,,,,,,,,,1,2,8,0,,,,,363.80627190019004,364.6055378001183,,,,,,,365.27179910009727,,365.52141360007226,364.6055378001183,364.85528010013513,,,,,364.85528010013513,364.85528010013513,left,1,0.397126599913463,,,,,,,,,2,001,n,2024-05-28_18h35.12.585,simon,2022.2.5,59.75104123833747,
blue,center,0.0,left,neutral,,,,,,,,,,,,,1,3,9,2,,,,,365.52141360007226,366.3207164001651,,,,,,,367.0200438001193,,367.26999890012667,366.3207164001651,366.57044520019554,,,,,366.57044520019554,366.57044520019554,left,1,0.42530840006656945,,,,,,,,,2,001,n,2024-05-28_18h35.12.585,simon,2022.2.5,59.75104123833747,
blue,center,0.0,left,neutral,,,,,,,,,,,,,1,4,10,2,,,,,367.26999890012667,368.06927100010216,,,,,,,368.80180030013435,,369.0517706000246,368.06927100010216,368.3191522001289,,,,,368.3191522001289,368.3191522001289,left,1,0.4537732000462711,,,,,,,,,2,001,n,2024-05-28_18h35.12.585,simon,2022.2.5,59.75104123833747,
red,right,0.5,right,congruent,,,,,,,,,,,,,1,5,11,3,,,,,369.0517706000246,369.85108220018446,,,,,,,370.567084700102,,370.81672670016997,369.85108220018446,370.1008111999836,,,,,370.1008111999836,370.1008111999836,right,1,0.4394831999670714,,,,,,,,,2,001,n,2024-05-28_18h35.12.585,simon,2022.2.5,59.75104123833747,
red,center,0.0,right,neutral,,,,,,,,,,,,,2,0,12,5,,,,,370.81672670016997,371.61621790006757,,,,,,,372.3987449000124,,372.64857940003276,371.61621790006757,371.8657361001242,,,,,371.8657361001242,371.8657361001242,right,1,0.5160467000678182,,,,,,,,,2,001,n,2024-05-28_18h35.12.585,simon,2022.2.5,59.75104123833747,
blue,left,-0.5,left,congruent,,,,,,,,,,,,,2,1,13,0,,,,,372.64857940003276,373.44770020013675,,,,,,,374.2469923000317,,374.49705770006403,373.44770020013675,373.6974393001292,,,,,373.6974393001292,373.6974393001292,left,1,0.523453600006178,,,,,,,,,2,001,n,2024-05-28_18h35.12.585,simon,2022.2.5,59.75104123833747,
blue,right,0.5,left,incongruent,,,,,,,,,,,,,2,2,14,1,,,,,374.49705770006403,375.2960704001598,,,,,,,376.07879320019856,,376.32892750017345,375.2960704001598,375.54592430009507,,,,,375.54592430009507,375.54592430009507,right,0,0.51572209992446,,,,,,,,,2,001,n,2024-05-28_18h35.12.585,simon,2022.2.5,59.75104123833747,
red,left,-0.5,right,incongruent,,,,,,,,,,,,,2,3,15,4,,,,,376.32892750017345,377.1444500000216,,,,,,,378.27702700020745,,378.52677390002646,,,,,,,377.3943010000512,377.3943010000512,right,1,0.865939499810338,,,,,,,,,2,001,n,2024-05-28_18h35.12.585,simon,2022.2.5,59.75104123833747,
blue,left,-0.5,left,congruent,,,,,,,,,,,,,2,4,16,0,,,,,378.52677390002646,379.3262177000288,,,,,,,380.27572590019554,,380.52548440010287,379.3262177000288,379.57589700003155,,,,,379.57589700003155,379.57589700003155,left,1,0.6685470999218524,,,,,,,,,2,001,n,2024-05-28_18h35.12.585,simon,2022.2.5,59.75104123833747,
red,right,0.5,right,congruent,,,,,,,,,,,,,2,5,17,3,,,,,380.52548440010287,381.3409335000906,,,,,,,382.07357960008085,,382.323333500186,,,,,,,381.59088760009035,381.59088760009035,right,1,0.4620640000794083,,,,,,,,,2,001,n,2024-05-28_18h35.12.585,simon,2022.2.5,59.75104123833747,
red,right,0.5,right,congruent,,,,,,,,,,,,,3,0,18,3,,,,,382.323333500186,383.12292670016177,,,,,,,383.8553458000533,,384.10536850010976,383.12292670016177,383.37246540002525,,,,,383.37246540002525,383.37246540002525,right,1,0.4637116000521928,,,,,,,,,2,001,n,2024-05-28_18h35.12.585,simon,2022.2.5,59.75104123833747,
blue,center,0.0,left,neutral,,,,,,,,,,,,,3,1,19,2,,,,,384.10536850010976,384.90454380004667,,,,,,,385.63726350013167,,385.8867990002036,384.90454380004667,385.15428720018826,,,,,385.15428720018826,385.15428720018826,left,1,0.45058550010435283,,,,,,,,,2,001,n,2024-05-28_18h35.12.585,simon,2022.2.5,59.75104123833747,
red,center,0.0,right,neutral,,,,,,,,,,,,,3,2,20,5,,,,,385.8867990002036,386.68638060009107,,,,,,,387.45220639999025,,387.70195490005426,386.68638060009107,386.93616720009595,,,,,386.93616720009595,386.93616720009595,right,1,0.4914557000156492,,,,,,,,,2,001,n,2024-05-28_18h35.12.585,simon,2022.2.5,59.75104123833747,
red,left,-0.5,right,incongruent,,,,,,,,,,,,,3,3,21,4,,,,,387.70195490005426,388.5017474000342,,,,,,,389.2842577002011,,389.5348102999851,388.5017474000342,388.7510006001685,,,,,388.7510006001685,388.7510006001685,left,0,0.5101501999888569,,,,,,,,,2,001,n,2024-05-28_18h35.12.585,simon,2022.2.5,59.75104123833747,
blue,center,0.0,left,neutral,,,,,,,,,,,,,3,4,22,2,,,,,389.5348102999851,390.3496503001079,,,,,,,391.3821965001989,,391.63198680011556,,,,,,,390.59945890004747,390.59945890004747,left,1,0.7648178001400083,,,,,,,,,2,001,n,2024-05-28_18h35.12.585,simon,2022.2.5,59.75104123833747,
red,center,0.0,right,neutral,,,,,,,,,,,,,3,5,23,5,,,,,391.63198680011556,392.4320456001442,,,,,,,393.26381490007043,,393.5136305000633,392.4320456001442,,,,,,392.6977536000777,392.6977536000777,right,1,0.5471059000119567,,,,,,,,,2,001,n,2024-05-28_18h35.12.585,simon,2022.2.5,59.75104123833747,
blue,right,0.5,left,incongruent,,,,,,,,,,,,,4,0,24,1,,,,,393.5136305000633,394.3130589001812,,,,,,,395.3457005000673,,395.59521590010263,394.3130589001812,394.5629610000178,,,,,394.5629610000178,394.5629610000178,left,1,0.7536095001269132,,,,,,,,,2,001,n,2024-05-28_18h35.12.585,simon,2022.2.5,59.75104123833747,
blue,center,0.0,left,neutral,,,,,,,,,,,,,4,1,25,2,,,,,395.59521590010263,396.39434850006364,,,,,,,397.1604903000407,,397.4104042002,396.39434850006364,396.6444324001204,,,,,396.6444324001204,396.6444324001204,left,1,0.48781069996766746,,,,,,,,,2,001,n,2024-05-28_18h35.12.585,simon,2022.2.5,59.75104123833747,
red,left,-0.5,right,incongruent,,,,,,,,,,,,,4,2,26,4,,,,,397.4104042002,398.22634230018593,,,,,,,399.09205310000107,,399.34178170002997,,,,,,,398.47607650002465,398.47607650002465,right,1,0.5839123001787812,,,,,,,,,2,001,n,2024-05-28_18h35.12.585,simon,2022.2.5,59.75104123833747,
red,left,-0.5,right,incongruent,,,,,,,,,,,,,4,3,27,4,,,,,399.34178170002997,400.14134940016083,,,,,,,400.8738639000803,,401.12382089998573,400.14134940016083,400.3908957000822,,,,,400.3908957000822,400.3908957000822,right,1,0.45490949996747077,,,,,,,,,2,001,n,2024-05-28_18h35.12.585,simon,2022.2.5,59.75104123833747,
blue,right,0.5,left,incongruent,,,,,,,,,,,,,4,4,28,1,,,,,401.12382089998573,401.9395564000588,,,,,,,403.13844880019315,,403.3882915000431,,,,,,,402.18947910005227,402.18947910005227,left,1,0.9261650999542326,,,,,,,,,2,001,n,2024-05-28_18h35.12.585,simon,2022.2.5,59.75104123833747,
red,right,0.5,right,congruent,,,,,,,,,,,,,4,5,29,3,,,,,403.3882915000431,404.1876912000589,,,,,,,405.303374200128,,405.55342120002024,404.1876912000589,404.4374210999813,,,,,404.4374210999813,404.4374210999813,right,1,0.84671980002895,,,,,,,,,2,001,n,2024-05-28_18h35.12.585,simon,2022.2.5,59.75104123833747,
blue,center,0.0,left,neutral,,,,,,,,,,,,,5,0,30,2,,,,,405.55342120002024,406.36912710010074,,,,,,,407.35162189998664,,407.60131480009295,,,,,,,406.6191784001421,406.6191784001421,left,1,0.7127217999659479,,,,,,,,,2,001,n,2024-05-28_18h35.12.585,simon,2022.2.5,59.75104123833747,
red,center,0.0,right,neutral,,,,,,,,,,,,,5,1,31,5,,,,,407.60131480009295,408.4004991000984,,,,,,,409.23336510010995,,409.48293200018816,408.4004991000984,408.65050670015626,,,,,408.65050670015626,408.65050670015626,right,1,0.5540693001821637,,,,,,,,,2,001,n,2024-05-28_18h35.12.585,simon,2022.2.5,59.75104123833747,
blue,left,-0.5,left,congruent,,,,,,,,,,,,,5,2,32,0,,,,,409.48293200018816,410.2823774002027,,,,,,,411.49813339998946,,411.7476009000093,410.2823774002027,410.5321525000036,,,,,410.5321525000036,410.5321525000036,left,1,0.9356215000152588,,,,,,,,,2,001,n,2024-05-28_18h35.12.585,simon,2022.2.5,59.75104123833747,
red,right,0.5,right,congruent,,,,,,,,,,,,,5,3,33,3,,,,,411.7476009000093,412.547058199998,,,,,,,413.24641760019585,,413.49634700012393,412.547058199998,412.79665990010835,,,,,412.79665990010835,412.79665990010835,right,1,0.43181629991158843,,,,,,,,,2,001,n,2024-05-28_18h35.12.585,simon,2022.2.5,59.75104123833747,
red,left,-0.5,right,incongruent,,,,,,,,,,,,,5,4,34,4,,,,,413.49634700012393,414.3123207001481,,,,,,,415.02831650013104,,415.2778877001256,,,,,,,414.56204680004157,414.56204680004157,right,1,0.433778699953109,,,,,,,,,2,001,n,2024-05-28_18h35.12.585,simon,2022.2.5,59.75104123833747,
red,left,-0.5,right,incongruent,,,,,,,,,,,,,5,5,35,4,,,,,415.2778877001256,416.07733340002596,,,,,,,416.7266723001376,,416.9766319000628,416.07733340002596,416.3271062001586,,,,,416.3271062001586,416.3271062001586,right,1,0.37351410021074116,,,,,,,,,2,001,n,2024-05-28_18h35.12.585,simon,2022.2.5,59.75104123833747,
blue,right,0.5,left,incongruent,,,,,,,,,,,,,6,0,36,1,,,,,416.9766319000628,417.7756812002044,,,,,,,418.59178050002083,,418.8428691001609,417.7756812002044,418.02563990000635,,,,,418.02563990000635,418.02563990000635,left,1,0.5463079998735338,,,,,,,,,2,001,n,2024-05-28_18h35.12.585,simon,2022.2.5,59.75104123833747,
red,right,0.5,right,congruent,,,,,,,,,,,,,6,1,37,3,,,,,418.8428691001609,419.658587400103,,,,,,,420.6566847001668,,420.90637980005704,,,,,,,419.9074690002017,419.9074690002017,right,1,0.7208143000025302,,,,,,,,,2,001,n,2024-05-28_18h35.12.585,simon,2022.2.5,59.75104123833747,
blue,left,-0.5,left,congruent,,,,,,,,,,,,,6,2,38,0,,,,,420.90637980005704,421.70581820001826,,,,,,,422.53839080012403,,422.7882758001797,421.70581820001826,421.95556050003506,,,,,421.95556050003506,421.95556050003506,left,1,0.552196899894625,,,,,,,,,2,001,n,2024-05-28_18h35.12.585,simon,2022.2.5,59.75104123833747,
red,center,0.0,right,neutral,,,,,,,,,,,,,6,3,39,5,,,,,422.7882758001797,423.58758240006864,,,,,,,424.3533014000859,,424.6032694000751,423.58758240006864,423.8370905001648,,,,,423.8370905001648,423.8370905001648,right,1,0.49565420020371675,,,,,,,,,2,001,n,2024-05-28_18h35.12.585,simon,2022.2.5,59.75104123833747,
blue,left,-0.5,left,congruent,,,,,,,,,,,,,6,4,40,0,,,,,424.6032694000751,425.4191493000835,,,,,,,426.2850781001616,,426.5348569001071,,,,,,,425.66953730001114,425.66953730001114,right,0,0.5835283999331295,,,,,,,,,2,001,n,2024-05-28_18h35.12.585,simon,2022.2.5,59.75104123833747,
blue,center,0.0,left,neutral,,,,,,,,,,,,,6,5,41,2,,,,,426.5348569001071,427.33415240002796,,,,,,,428.0836075001862,,428.3332543000579,427.33415240002796,427.58400340005755,,,,,427.58400340005755,427.58400340005755,right,0,0.4686173000372946,,,,,,,,,2,001,n,2024-05-28_18h35.12.585,simon,2022.2.5,59.75104123833747,
,,,,,,,,,,,,,,,,,,,,,,,,,,,,,,,,,,,,,,,,,,,,,,,,,,,428.3332543000579,428.3332543000579,space,1.5906917001120746,2,001,n,2024-05-28_18h35.12.585,simon,2022.2.5,59.75104123833747,
